
# From lspdd.org
# 
# Name: LFC Philips domestic-use -
# Indice spectral Valeur 
# MSI 0.88 
# SLI 0.75 
# IPI 1.12 
# Pourcentage de bleu 29.2 
# Caractéristique Valeur 
# CCT calculée (K) 3702 
# CCT du fabricant (K) 5000 
# Tension (V) 120 
# Puissance (W) 13.0 
# Efficacité lumineuse (Lum/W) ND 
#
# Image: '/app/system/img_1s/2768/medium_image1.jpg?1622001364'
# 

  273.00  0 
  273.50  0 
  274.00  0 
  274.50  0 
  275.00  0 
  275.50  0 
  276.00  0 
  276.50  0 
  277.00  0 
  277.50  0 
  278.00  0 
  278.50  0 
  279.00  0 
  279.50  0 
  280.00  0 
  280.50  0 
  281.00  0 
  281.50  0 
  282.00  0 
  282.50  0 
  283.00  0 
  283.50  0 
  284.00  0 
  284.50  0 
  285.00  0 
  285.50  0 
  286.00  0 
  286.50  0 
  287.00  0 
  287.50  0 
  288.00  0 
  288.50  0 
  289.00  0 
  289.50  0 
  290.00  0 
  290.50  0 
  291.00  0 
  291.50  0 
  292.00  0 
  292.50  0 
  293.00  0 
  293.50  0 
  294.00  0 
  294.50  0 
  295.00  0 
  295.50  0 
  296.00  0 
  296.50  0 
  297.00  0 
  297.50  0 
  298.00  0 
  298.50  0 
  299.00  0 
  299.50  0 
  300.00  3 
  300.50  8 
  301.00  2 
  301.50  0 
  302.00  3 
  302.50  1 
  303.00  3 
  303.50  4 
  304.00  4 
  304.50  5 
  305.00  5 
  305.50  5 
  306.00  4 
  306.50  2 
  307.00  1 
  307.50  1 
  308.00  2 
  308.50  2 
  309.00  2 
  309.50  1 
  310.00  2 
  310.50  4 
  311.00  3 
  311.50  2 
  312.00  4 
  312.50  0 
  313.00  2 
  313.50  2 
  314.00  0 
  314.50  0 
  315.00  0 
  315.50  0 
  316.00  4 
  316.50  3 
  317.00  4 
  317.50  3 
  318.00  2 
  318.50  2 
  319.00  5 
  319.50  1 
  320.00  2 
  320.50  2 
  321.00  1 
  321.50  1 
  322.00  2 
  322.50  3 
  323.00  4 
  323.50  3 
  324.00  3 
  324.50  3 
  325.00  2 
  325.50  1 
  326.00  2 
  326.50  0 
  327.00  0 
  327.50  0 
  328.00  0 
  328.50  3 
  329.00  2 
  329.50  1 
  330.00  3 
  330.50  6 
  331.00  8 
  331.50  6 
  332.00  5 
  332.50  2 
  333.00  9 
  333.50  1 
  334.00  4 
  334.50  4 
  335.00  4 
  335.50  2 
  336.00  1 
  336.50  2 
  337.00  3 
  337.50  4 
  338.00  3 
  338.50  1 
  339.00  1 
  339.50  2 
  340.00  4 
  340.50  5 
  341.00  6 
  341.50  5 
  342.00  5 
  342.50  5 
  343.00  5 
  343.50  3 
  344.00  1 
  344.50  2 
  345.00  3 
  345.50  5 
  346.00  7 
  346.50  7 
  347.00  8 
  347.50  9 
  348.00  7 
  348.50  3 
  349.00  5 
  349.50  0 
  350.00  4 
  350.50  2 
  351.00  3 
  351.50  2 
  352.00  1 
  352.50  2 
  353.00  4 
  353.50  7 
  354.00  7 
  354.50  6 
  355.00  6 
  355.50  6 
  356.00  8 
  356.50  1 
  357.00  1 
  357.50  8 
  358.00  6 
  358.50  5 
  359.00  5 
  359.50  7 
  360.00  9 
  360.50  1 
  361.00  1 
  361.50  8 
  362.00  7 
  362.50  9 
  363.00  2 
  363.50  4 
  364.00  8 
  364.50  1 
  365.00  1 
  365.50  1 
  366.00  8 
  366.50  5 
  367.00  3 
  367.50  1 
  368.00  8 
  368.50  4 
  369.00  5 
  369.50  7 
  370.00  8 
  370.50  9 
  371.00  8 
  371.50  8 
  372.00  1 
  372.50  1 
  373.00  1 
  373.50  1 
  374.00  1 
  374.50  1 
  375.00  1 
  375.50  1 
  376.00  9 
  376.50  9 
  377.00  1 
  377.50  1 
  378.00  1 
  378.50  1 
  379.00  1 
  379.50  1 
  380.00  1 
  380.50  1 
  381.00  1 
  381.50  1 
  382.00  1 
  382.50  1 
  383.00  1 
  383.50  9 
  384.00  9 
  384.50  1 
  385.00  1 
  385.50  9 
  386.00  1 
  386.50  1 
  387.00  1 
  387.50  1 
  388.00  1 
  388.50  1 
  389.00  1 
  389.50  9 
  390.00  8 
  390.50  8 
  391.00  8 
  391.50  9 
  392.00  1 
  392.50  1 
  393.00  1 
  393.50  1 
  394.00  1 
  394.50  1 
  395.00  1 
  395.50  1 
  396.00  2 
  396.50  2 
  397.00  2 
  397.50  2 
  398.00  2 
  398.50  2 
  399.00  2 
  399.50  2 
  400.00  2 
  400.50  2 
  401.00  2 
  401.50  3 
  402.00  4 
  402.50  9 
  403.00  2 
  403.50  5 
  404.00  8 
  404.50  9 
  405.00  7 
  405.50  4 
  406.00  2 
  406.50  1 
  407.00  1 
  407.50  1 
  408.00  1 
  408.50  9 
  409.00  7 
  409.50  6 
  410.00  6 
  410.50  6 
  411.00  6 
  411.50  6 
  412.00  6 
  412.50  6 
  413.00  7 
  413.50  7 
  414.00  8 
  414.50  8 
  415.00  9 
  415.50  9 
  416.00  9 
  416.50  1 
  417.00  1 
  417.50  1 
  418.00  1 
  418.50  1 
  419.00  1 
  419.50  1 
  420.00  1 
  420.50  1 
  421.00  1 
  421.50  1 
  422.00  1 
  422.50  1 
  423.00  1 
  423.50  1 
  424.00  1 
  424.50  1 
  425.00  1 
  425.50  1 
  426.00  2 
  426.50  2 
  427.00  2 
  427.50  2 
  428.00  2 
  428.50  2 
  429.00  2 
  429.50  2 
  430.00  2 
  430.50  2 
  431.00  2 
  431.50  2 
  432.00  2 
  432.50  3 
  433.00  3 
  433.50  4 
  434.00  8 
  434.50  1 
  435.00  2 
  435.50  3 
  436.00  2 
  436.50  2 
  437.00  1 
  437.50  6 
  438.00  4 
  438.50  3 
  439.00  3 
  439.50  3 
  440.00  3 
  440.50  3 
  441.00  3 
  441.50  3 
  442.00  3 
  442.50  3 
  443.00  3 
  443.50  3 
  444.00  3 
  444.50  3 
  445.00  3 
  445.50  3 
  446.00  3 
  446.50  3 
  447.00  3 
  447.50  3 
  448.00  3 
  448.50  3 
  449.00  3 
  449.50  3 
  450.00  3 
  450.50  3 
  451.00  3 
  451.50  3 
  452.00  3 
  452.50  3 
  453.00  3 
  453.50  3 
  454.00  3 
  454.50  3 
  455.00  3 
  455.50  3 
  456.00  3 
  456.50  3 
  457.00  3 
  457.50  3 
  458.00  3 
  458.50  3 
  459.00  3 
  459.50  3 
  460.00  3 
  460.50  3 
  461.00  3 
  461.50  3 
  462.00  3 
  462.50  3 
  463.00  3 
  463.50  3 
  464.00  3 
  464.50  3 
  465.00  3 
  465.50  3 
  466.00  3 
  466.50  3 
  467.00  3 
  467.50  3 
  468.00  3 
  468.50  3 
  469.00  3 
  469.50  3 
  470.00  3 
  470.50  3 
  471.00  3 
  471.50  3 
  472.00  3 
  472.50  3 
  473.00  3 
  473.50  3 
  474.00  2 
  474.50  2 
  475.00  2 
  475.50  2 
  476.00  2 
  476.50  2 
  477.00  2 
  477.50  2 
  478.00  2 
  478.50  2 
  479.00  2 
  479.50  2 
  480.00  2 
  480.50  2 
  481.00  3 
  481.50  3 
  482.00  3 
  482.50  3 
  483.00  4 
  483.50  4 
  484.00  5 
  484.50  5 
  485.00  6 
  485.50  6 
  486.00  6 
  486.50  7 
  487.00  6 
  487.50  6 
  488.00  6 
  488.50  6 
  489.00  5 
  489.50  5 
  490.00  5 
  490.50  5 
  491.00  4 
  491.50  4 
  492.00  4 
  492.50  4 
  493.00  4 
  493.50  3 
  494.00  3 
  494.50  3 
  495.00  3 
  495.50  3 
  496.00  3 
  496.50  3 
  497.00  2 
  497.50  2 
  498.00  2 
  498.50  2 
  499.00  2 
  499.50  2 
  500.00  2 
  500.50  2 
  501.00  2 
  501.50  2 
  502.00  2 
  502.50  2 
  503.00  2 
  503.50  1 
  504.00  1 
  504.50  1 
  505.00  1 
  505.50  1 
  506.00  1 
  506.50  2 
  507.00  2 
  507.50  2 
  508.00  2 
  508.50  2 
  509.00  2 
  509.50  2 
  510.00  2 
  510.50  2 
  511.00  2 
  511.50  2 
  512.00  2 
  512.50  2 
  513.00  2 
  513.50  2 
  514.00  2 
  514.50  2 
  515.00  2 
  515.50  2 
  516.00  2 
  516.50  2 
  517.00  2 
  517.50  2 
  518.00  2 
  518.50  2 
  519.00  2 
  519.50  2 
  520.00  2 
  520.50  1 
  521.00  1 
  521.50  1 
  522.00  1 
  522.50  1 
  523.00  1 
  523.50  1 
  524.00  1 
  524.50  1 
  525.00  1 
  525.50  1 
  526.00  1 
  526.50  1 
  527.00  1 
  527.50  1 
  528.00  1 
  528.50  1 
  529.00  1 
  529.50  1 
  530.00  1 
  530.50  1 
  531.00  1 
  531.50  1 
  532.00  1 
  532.50  1 
  533.00  1 
  533.50  1 
  534.00  1 
  534.50  1 
  535.00  2 
  535.50  2 
  536.00  2 
  536.50  3 
  537.00  3 
  537.50  4 
  538.00  4 
  538.50  5 
  539.00  7 
  539.50  1 
  540.00  1 
  540.50  1 
  541.00  2 
  541.50  2 
  542.00  2 
  542.50  2 
  543.00  2 
  543.50  2 
  544.00  2 
  544.50  2 
  545.00  3 
  545.50  3 
  546.00  3 
  546.50  3 
  547.00  2 
  547.50  1 
  548.00  1 
  548.50  1 
  549.00  1 
  549.50  1 
  550.00  9 
  550.50  7 
  551.00  6 
  551.50  5 
  552.00  5 
  552.50  4 
  553.00  3 
  553.50  3 
  554.00  3 
  554.50  2 
  555.00  2 
  555.50  2 
  556.00  1 
  556.50  1 
  557.00  1 
  557.50  1 
  558.00  1 
  558.50  1 
  559.00  1 
  559.50  1 
  560.00  1 
  560.50  9 
  561.00  9 
  561.50  9 
  562.00  8 
  562.50  8 
  563.00  8 
  563.50  8 
  564.00  7 
  564.50  7 
  565.00  6 
  565.50  6 
  566.00  6 
  566.50  6 
  567.00  6 
  567.50  6 
  568.00  6 
  568.50  6 
  569.00  6 
  569.50  5 
  570.00  5 
  570.50  5 
  571.00  4 
  571.50  4 
  572.00  4 
  572.50  4 
  573.00  4 
  573.50  4 
  574.00  5 
  574.50  6 
  575.00  1 
  575.50  2 
  576.00  3 
  576.50  5 
  577.00  5 
  577.50  5 
  578.00  5 
  578.50  5 
  579.00  6 
  579.50  5 
  580.00  4 
  580.50  4 
  581.00  3 
  581.50  4 
  582.00  4 
  582.50  5 
  583.00  5 
  583.50  5 
  584.00  5 
  584.50  5 
  585.00  5 
  585.50  5 
  586.00  5 
  586.50  6 
  587.00  7 
  587.50  6 
  588.00  5 
  588.50  4 
  589.00  3 
  589.50  3 
  590.00  3 
  590.50  3 
  591.00  3 
  591.50  4 
  592.00  5 
  592.50  5 
  593.00  5 
  593.50  5 
  594.00  4 
  594.50  3 
  595.00  2 
  595.50  2 
  596.00  2 
  596.50  2 
  597.00  2 
  597.50  2 
  598.00  3 
  598.50  3 
  599.00  3 
  599.50  3 
  600.00  3 
  600.50  3 
  601.00  2 
  601.50  2 
  602.00  1 
  602.50  1 
  603.00  1 
  603.50  1 
  604.00  1 
  604.50  1 
  605.00  1 
  605.50  2 
  606.00  2 
  606.50  2 
  607.00  3 
  607.50  3 
  608.00  4 
  608.50  6 
  609.00  9 
  609.50  1 
  610.00  2 
  610.50  4 
  611.00  5 
  611.50  5 
  612.00  4 
  612.50  3 
  613.00  2 
  613.50  2 
  614.00  1 
  614.50  1 
  615.00  1 
  615.50  1 
  616.00  8 
  616.50  6 
  617.00  5 
  617.50  4 
  618.00  4 
  618.50  4 
  619.00  3 
  619.50  3 
  620.00  4 
  620.50  4 
  621.00  4 
  621.50  4 
  622.00  4 
  622.50  4 
  623.00  4 
  623.50  4 
  624.00  5 
  624.50  5 
  625.00  5 
  625.50  5 
  626.00  5 
  626.50  5 
  627.00  4 
  627.50  4 
  628.00  4 
  628.50  4 
  629.00  4 
  629.50  5 
  630.00  6 
  630.50  7 
  631.00  7 
  631.50  6 
  632.00  4 
  632.50  3 
  633.00  2 
  633.50  1 
  634.00  1 
  634.50  1 
  635.00  1 
  635.50  1 
  636.00  9 
  636.50  9 
  637.00  8 
  637.50  8 
  638.00  8 
  638.50  8 
  639.00  7 
  639.50  7 
  640.00  7 
  640.50  7 
  641.00  7 
  641.50  7 
  642.00  7 
  642.50  7 
  643.00  7 
  643.50  7 
  644.00  8 
  644.50  7 
  645.00  7 
  645.50  7 
  646.00  7 
  646.50  7 
  647.00  7 
  647.50  7 
  648.00  8 
  648.50  9 
  649.00  1 
  649.50  1 
  650.00  1 
  650.50  2 
  651.00  1 
  651.50  1 
  652.00  1 
  652.50  1 
  653.00  1 
  653.50  1 
  654.00  1 
  654.50  9 
  655.00  9 
  655.50  8 
  656.00  8 
  656.50  8 
  657.00  8 
  657.50  9 
  658.00  8 
  658.50  8 
  659.00  7 
  659.50  6 
  660.00  5 
  660.50  6 
  661.00  7 
  661.50  1 
  662.00  1 
  662.50  1 
  663.00  1 
  663.50  1 
  664.00  8 
  664.50  7 
  665.00  6 
  665.50  5 
  666.00  5 
  666.50  5 
  667.00  5 
  667.50  5 
  668.00  5 
  668.50  5 
  669.00  5 
  669.50  5 
  670.00  5 
  670.50  4 
  671.00  4 
  671.50  4 
  672.00  4 
  672.50  4 
  673.00  4 
  673.50  4 
  674.00  4 
  674.50  4 
  675.00  4 
  675.50  3 
  676.00  3 
  676.50  3 
  677.00  3 
  677.50  3 
  678.00  3 
  678.50  4 
  679.00  4 
  679.50  5 
  680.00  5 
  680.50  5 
  681.00  5 
  681.50  5 
  682.00  5 
  682.50  5 
  683.00  4 
  683.50  4 
  684.00  4 
  684.50  4 
  685.00  5 
  685.50  5 
  686.00  7 
  686.50  9 
  687.00  1 
  687.50  1 
  688.00  1 
  688.50  1 
  689.00  8 
  689.50  6 
  690.00  4 
  690.50  4 
  691.00  3 
  691.50  3 
  692.00  4 
  692.50  5 
  693.00  7 
  693.50  8 
  694.00  8 
  694.50  6 
  695.00  4 
  695.50  3 
  696.00  2 
  696.50  2 
  697.00  2 
  697.50  2 
  698.00  1 
  698.50  1 
  699.00  2 
  699.50  2 
  700.00  1 
  700.50  1 
  701.00  2 
  701.50  2 
  702.00  2 
  702.50  3 
  703.00  4 
  703.50  4 
  704.00  5 
  704.50  6 
  705.00  9 
  705.50  1 
  706.00  2 
  706.50  2 
  707.00  2 
  707.50  2 
  708.00  2 
  708.50  3 
  709.00  3 
  709.50  2 
  710.00  1 
  710.50  1 
  711.00  1 
  711.50  2 
  712.00  2 
  712.50  2 
  713.00  1 
  713.50  1 
  714.00  7 
  714.50  4 
  715.00  3 
  715.50  2 
  716.00  1 
  716.50  1 
  717.00  1 
  717.50  1 
  718.00  1 
  718.50  1 
  719.00  1 
  719.50  1 
  720.00  1 
  720.50  1 
  721.00  1 
  721.50  1 
  722.00  7 
  722.50  8 
  723.00  1 
  723.50  1 
  724.00  6 
  724.50  4 
  725.00  2 
  725.50  6 
  726.00  1 
  726.50  1 
  727.00  1 
  727.50  9 
  728.00  5 
  728.50  4 
  729.00  2 
  729.50  1 
  730.00  6 
  730.50  2 
  731.00  4 
  731.50  5 
  732.00  5 
  732.50  6 
  733.00  5 
  733.50  3 
  734.00  4 
  734.50  5 
  735.00  5 
  735.50  1 
  736.00  1 
  736.50  3 
  737.00  7 
  737.50  1 
  738.00  1 
  738.50  2 
  739.00  1 
  739.50  1 
  740.00  1 
  740.50  7 
  741.00  5 
  741.50  5 
  742.00  6 
  742.50  9 
  743.00  1 
  743.50  1 
  744.00  1 
  744.50  1 
  745.00  1 
  745.50  1 
  746.00  9 
  746.50  4 
  747.00  9 
  747.50  7 
  748.00  2 
  748.50  3 
  749.00  6 
  749.50  1 
  750.00  2 
  750.50  2 
  751.00  1 
  751.50  1 
  752.00  1 
  752.50  1 
  753.00  4 
  753.50  3 
  754.00  8 
  754.50  9 
  755.00  5 
  755.50  3 
  756.00  4 
  756.50  4 
  757.00  1 
  757.50  0 
  758.00  3 
  758.50  9 
  759.00  0 
  759.50  2 
  760.00  9 
  760.50  4 
  761.00  1 
  761.50  7 
  762.00  8 
  762.50  1 
  763.00  3 
  763.50  3 
  764.00  2 
  764.50  1 
  765.00  7 
  765.50  5 
  766.00  3 
  766.50  7 
  767.00  9 
  767.50  6 
  768.00  9 
  768.50  0 
  769.00  1 
  769.50  9 
  770.00  2 
  770.50  3 
  771.00  9 
  771.50  1 
  772.00  2 
  772.50  2 
  773.00  1 
  773.50  1 
  774.00  1 
  774.50  0 
  775.00  0 
  775.50  0 
  776.00  1 
  776.50  0 
  777.00  0 
  777.50  0 
  778.00  5 
  778.50  3 
  779.00  6 
  779.50  7 
  780.00  2 
  780.50  0 
  781.00  0 
  781.50  1 
  782.00  2 
  782.50  7 
  783.00  1 
  783.50  0 
  784.00  0 
  784.50  0 
  785.00  2 
  785.50  4 
  786.00  2 
  786.50  0 
  787.00  0 
  787.50  0 
  788.00  8 
  788.50  4 
  789.00  6 
  789.50  3 
  790.00  3 
  790.50  5 
  791.00  9 
  791.50  9 
  792.00  8 
  792.50  6 
  793.00  4 
  793.50  6 
  794.00  1 
  794.50  9 
  795.00  6 
  795.50  7 
  796.00  1 
  796.50  7 
  797.00  4 
  797.50  8 
  798.00  3 
  798.50  0 
  799.00  0 
  799.50  6 
  800.00  1 
  800.50  1 
  801.00  2 
  801.50  2 
  802.00  2 
  802.50  1 
  803.00  5 
  803.50  6 
  804.00  1 
  804.50  1 
  805.00  7 
  805.50  4 
  806.00  4 
  806.50  4 
  807.00  5 
  807.50  1 
  808.00  2 
  808.50  3 
  809.00  4 
  809.50  4 
  810.00  4 
  810.50  5 
  811.00  5 
  811.50  5 
  812.00  3 
  812.50  2 
  813.00  1 
  813.50  5 
  814.00  0 
  814.50  0 
  815.00  0 
  815.50  3 
  816.00  8 
  816.50  1 
  817.00  1 
  817.50  1 
  818.00  1 
  818.50  1 
  819.00  9 
  819.50  2 
  820.00  0 
  820.50  0 
  821.00  0 
  821.50  6 
  822.00  1 
  822.50  2 
  823.00  2 
  823.50  2 
  824.00  4 
  824.50  0 
  825.00  0 
  825.50  3 
  826.00  1 
  826.50  1 
  827.00  1 
  827.50  1 
  828.00  1 
  828.50  8 
  829.00  6 
  829.50  0 
  830.00  0 
  830.50  0 
  831.00  0 
  831.50  0 
  832.00  0 
  832.50  0 
  833.00  3 
  833.50  1 
  834.00  1 
  834.50  3 
  835.00  2 
  835.50  3 
  836.00  1 
  836.50  0 
  837.00  0 
  837.50  0 
  838.00  4 
  838.50  3 
  839.00  1 
  839.50  1 
  840.00  1 
  840.50  3 
  841.00  4 
  841.50  3 
  842.00  1 
  842.50  1 
  843.00  7 
  843.50  5 
  844.00  1 
  844.50  1 
  845.00  3 
  845.50  6 
  846.00  1 
  846.50  2 
  847.00  1 
  847.50  1 
  848.00  0 
  848.50  2 
  849.00  1 
  849.50  3 
  850.00  3 
  850.50  3 
  851.00  3 
  851.50  2 
  852.00  1 
  852.50  1 
  853.00  1 
  853.50  1 
  854.00  4 
  854.50  6 
  855.00  3 
  855.50  2 
  856.00  1 
  856.50  1 
  857.00  2 
  857.50  0 
  858.00  2 
  858.50  9 
  859.00  0 
  859.50  0 
  860.00  0 
  860.50  7 
  861.00  1 
  861.50  1 
  862.00  8 
  862.50  1 
  863.00  1 
  863.50  2 
  864.00  2 
  864.50  3 
  865.00  2 
  865.50  6 
  866.00  0 
  866.50  2 
  867.00  9 
  867.50  1 
  868.00  1 
  868.50  1 
  869.00  5 
  869.50  2 
  870.00  5 
  870.50  8 
  871.00  8 
  871.50  6 
  872.00  3 
  872.50  1 
  873.00  6 
  873.50  2 
  874.00  1 
  874.50  3 
  875.00  7 
  875.50  8 
  876.00  0 
  876.50  0 
  877.00  0 
  877.50  2 
  878.00  2 
  878.50  2 
  879.00  1 
  879.50  1 
  880.00  3 
  880.50  8 
  881.00  5 
  881.50  5 
  882.00  2 
  882.50  3 
  883.00  1 
  883.50  1 
  884.00  3 
  884.50  1 
  885.00  2 
  885.50  2 
  886.00  1 
  886.50  1 
  887.00  1 
  887.50  2 
  888.00  1 
  888.50  2 
  889.00  0 
  889.50  0 
  890.00  0 
  890.50  0 
  891.00  0 
  891.50  1 
  892.00  4 
  892.50  3 
  893.00  1 
  893.50  1 
  894.00  2 
  894.50  0 
  895.00  0 
  895.50  4 
  896.00  1 
  896.50  1 
  897.00  5 
  897.50  9 
  898.00  1 
  898.50  0 
  899.00  0 
  899.50  0 
