
# From lspdd.org
# 
# Name: HPS GE domestic-use -
# Indice spectral Valeur 
# MSI 0.07 
# SLI 0.24 
# IPI 0.38 
# Pourcentage de bleu 7.2 
# Caractéristique Valeur 
# CCT calculée (K) 2305 
# CCT du fabricant (K) 1800 
# Tension (V) ND 
# Puissance (W) 70.0 
# Efficacité lumineuse (Lum/W) ND 
#
# Image: '/app/system/img_1s/2769/medium_image1.jpg?1622001364'
# 

  273.00  0.0000E+000  
  273.50  0.0000E+000  
  274.00  0.0000E+000  
  274.50  0.0000E+000  
  275.00  0.0000E+000  
  275.50  0.0000E+000  
  276.00  0.0000E+000  
  276.50  0.0000E+000  
  277.00  0.0000E+000  
  277.50  0.0000E+000  
  278.00  0.0000E+000  
  278.50  0.0000E+000  
  279.00  0.0000E+000  
  279.50  0.0000E+000  
  280.00  0.0000E+000  
  280.50  0.0000E+000  
  281.00  0.0000E+000  
  281.50  0.0000E+000  
  282.00  0.0000E+000  
  282.50  0.0000E+000  
  283.00  0.0000E+000  
  283.50  0.0000E+000  
  284.00  0.0000E+000  
  284.50  0.0000E+000  
  285.00  0.0000E+000  
  285.50  0.0000E+000  
  286.00  0.0000E+000  
  286.50  0.0000E+000  
  287.00  0.0000E+000  
  287.50  0.0000E+000  
  288.00  0.0000E+000  
  288.50  0.0000E+000  
  289.00  0.0000E+000  
  289.50  0.0000E+000  
  290.00  0.0000E+000  
  290.50  0.0000E+000  
  291.00  0.0000E+000  
  291.50  0.0000E+000  
  292.00  0.0000E+000  
  292.50  0.0000E+000  
  293.00  0.0000E+000  
  293.50  0.0000E+000  
  294.00  0.0000E+000  
  294.50  0.0000E+000  
  295.00  0.0000E+000  
  295.50  0.0000E+000  
  296.00  0.0000E+000  
  296.50  0.0000E+000  
  297.00  0.0000E+000  
  297.50  0.0000E+000  
  298.00  0.0000E+000  
  298.50  0.0000E+000  
  299.00  0.0000E+000  
  299.50  0.0000E+000  
  300.00  0.0000E+000  
  300.50  0.0000E+000  
  301.00  0.0000E+000  
  301.50  0.0000E+000  
  302.00  0.0000E+000  
  302.50  0.0000E+000  
  303.00  0.0000E+000  
  303.50  0.0000E+000  
  304.00  0.0000E+000  
  304.50  0.0000E+000  
  305.00  0.0000E+000  
  305.50  0.0000E+000  
  306.00  0.0000E+000  
  306.50  0.0000E+000  
  307.00  0.0000E+000  
  307.50  0.0000E+000  
  308.00  0.0000E+000  
  308.50  0.0000E+000  
  309.00  0.0000E+000  
  309.50  0.0000E+000  
  310.00  0.0000E+000  
  310.50  0.0000E+000  
  311.00  0.0000E+000  
  311.50  0.0000E+000  
  312.00  0.0000E+000  
  312.50  0.0000E+000  
  313.00  0.0000E+000  
  313.50  0.0000E+000  
  314.00  0.0000E+000  
  314.50  0.0000E+000  
  315.00  0.0000E+000  
  315.50  0.0000E+000  
  316.00  0.0000E+000  
  316.50  0.0000E+000  
  317.00  0.0000E+000  
  317.50  0.0000E+000  
  318.00  0.0000E+000  
  318.50  0.0000E+000  
  319.00  0.0000E+000  
  319.50  0.0000E+000  
  320.00  0.0000E+000  
  320.50  0.0000E+000  
  321.00  0.0000E+000  
  321.50  0.0000E+000  
  322.00  0.0000E+000  
  322.50  0.0000E+000  
  323.00  0.0000E+000  
  323.50  0.0000E+000  
  324.00  0.0000E+000  
  324.50  0.0000E+000  
  325.00  0.0000E+000  
  325.50  0.0000E+000  
  326.00  0.0000E+000  
  326.50  0.0000E+000  
  327.00  0.0000E+000  
  327.50  0.0000E+000  
  328.00  0.0000E+000  
  328.50  0.0000E+000  
  329.00  0.0000E+000  
  329.50  0.0000E+000  
  330.00  0.0000E+000  
  330.50  0.0000E+000  
  331.00  0.0000E+000  
  331.50  0.0000E+000  
  332.00  0.0000E+000  
  332.50  0.0000E+000  
  333.00  0.0000E+000  
  333.50  0.0000E+000  
  334.00  0.0000E+000  
  334.50  0.0000E+000  
  335.00  0.0000E+000  
  335.50  0.0000E+000  
  336.00  0.0000E+000  
  336.50  0.0000E+000  
  337.00  0.0000E+000  
  337.50  0.0000E+000  
  338.00  0.0000E+000  
  338.50  0.0000E+000  
  339.00  0.0000E+000  
  339.50  0.0000E+000  
  340.00  0.0000E+000  
  340.50  0.0000E+000  
  341.00  0.0000E+000  
  341.50  0.0000E+000  
  342.00  0.0000E+000  
  342.50  0.0000E+000  
  343.00  0.0000E+000  
  343.50  0.0000E+000  
  344.00  0.0000E+000  
  344.50  0.0000E+000  
  345.00  0.0000E+000  
  345.50  0.0000E+000  
  346.00  0.0000E+000  
  346.50  0.0000E+000  
  347.00  0.0000E+000  
  347.50  0.0000E+000  
  348.00  0.0000E+000  
  348.50  0.0000E+000  
  349.00  0.0000E+000  
  349.50  0.0000E+000  
  350.00  0.0000E+000  
  350.50  0.0000E+000  
  351.00  0.0000E+000  
  351.50  0.0000E+000  
  352.00  0.0000E+000  
  352.50  0.0000E+000  
  353.00  0.0000E+000  
  353.50  0.0000E+000  
  354.00  0.0000E+000  
  354.50  0.0000E+000  
  355.00  0.0000E+000  
  355.50  0.0000E+000  
  356.00  0.0000E+000  
  356.50  0.0000E+000  
  357.00  0.0000E+000  
  357.50  0.0000E+000  
  358.00  0.0000E+000  
  358.50  0.0000E+000  
  359.00  0.0000E+000  
  359.50  0.0000E+000  
  360.00  0.0000E+000  
  360.50  0.0000E+000  
  361.00  0.0000E+000  
  361.50  0.0000E+000  
  362.00  0.0000E+000  
  362.50  0.0000E+000  
  363.00  0.0000E+000  
  363.50  0.0000E+000  
  364.00  0.0000E+000  
  364.50  0.0000E+000  
  365.00  0.0000E+000  
  365.50  0.0000E+000  
  366.00  0.0000E+000  
  366.50  0.0000E+000  
  367.00  0.0000E+000  
  367.50  0.0000E+000  
  368.00  0.0000E+000  
  368.50  0.0000E+000  
  369.00  0.0000E+000  
  369.50  0.0000E+000  
  370.00  0.0000E+000  
  370.50  0.0000E+000  
  371.00  0.0000E+000  
  371.50  0.0000E+000  
  372.00  0.0000E+000  
  372.50  0.0000E+000  
  373.00  0.0000E+000  
  373.50  0.0000E+000  
  374.00  0.0000E+000  
  374.50  0.0000E+000  
  375.00  0.0000E+000  
  375.50  0.0000E+000  
  376.00  0.0000E+000  
  376.50  0.0000E+000  
  377.00  0.0000E+000  
  377.50  0.0000E+000  
  378.00  0.0000E+000  
  378.50  0.0000E+000  
  379.00  0.0000E+000  
  379.50  0.0000E+000  
  380.00  1.6409E-005  
  380.50  8.1624E-005  
  381.00  1.6088E-004  
  381.50  1.8646E-004  
  382.00  1.4400E-004  
  382.50  1.0069E-004  
  383.00  4.1132E-005  
  383.50  4.6739E-005  
  384.00  1.0894E-004  
  384.50  1.5132E-004  
  385.00  1.8354E-004  
  385.50  1.9030E-004  
  386.00  1.8703E-004  
  386.50  7.9800E-005  
  387.00  4.4969E-005  
  387.50  5.0162E-006  
  388.00  2.1334E-005  
  388.50  2.1228E-004  
  389.00  4.6020E-004  
  389.50  6.4531E-004  
  390.00  7.8092E-004  
  390.50  6.9997E-004  
  391.00  4.9589E-004  
  391.50  4.0438E-004  
  392.00  3.6288E-004  
  392.50  4.2480E-004  
  393.00  4.7969E-004  
  393.50  6.4346E-004  
  394.00  7.5845E-004  
  394.50  8.0342E-004  
  395.00  6.7253E-004  
  395.50  1.1513E-004  
  396.00  7.6114E-006  
  396.50  2.5412E-004  
  397.00  9.3822E-004  
  397.50  1.3018E-003  
  398.00  1.5379E-003  
  398.50  1.2685E-003  
  399.00  1.2395E-003  
  399.50  1.2419E-003  
  400.00  1.1794E-003  
  400.50  1.4284E-003  
  401.00  1.6808E-003  
  401.50  1.5024E-003  
  402.00  1.3315E-003  
  402.50  1.0260E-003  
  403.00  6.8552E-004  
  403.50  6.3534E-004  
  404.00  3.7209E-004  
  404.50  6.5582E-004  
  405.00  1.5656E-003  
  405.50  2.8052E-003  
  406.00  4.0635E-003  
  406.50  4.7513E-003  
  407.00  5.2460E-003  
  407.50  5.5757E-003  
  408.00  5.4499E-003  
  408.50  4.3300E-003  
  409.00  2.6869E-003  
  409.50  1.1535E-003  
  410.00  1.2499E-003  
  410.50  1.9516E-003  
  411.00  2.4117E-003  
  411.50  1.9963E-003  
  412.00  5.4801E-004  
  412.50  9.1075E-004  
  413.00  9.7197E-004  
  413.50  2.9977E-003  
  414.00  4.4448E-003  
  414.50  4.8983E-003  
  415.00  5.6998E-003  
  415.50  4.7013E-003  
  416.00  4.3583E-003  
  416.50  4.5219E-003  
  417.00  3.7518E-003  
  417.50  4.5333E-003  
  418.00  6.0314E-003  
  418.50  7.7823E-003  
  419.00  7.8035E-003  
  419.50  8.6190E-003  
  420.00  8.2346E-003  
  420.50  9.1656E-003  
  421.00  1.0350E-002  
  421.50  9.6148E-003  
  422.00  9.7802E-003  
  422.50  1.1597E-002  
  423.00  1.1150E-002  
  423.50  8.0985E-003  
  424.00  2.5971E-003  
  424.50  0.0000E+000  
  425.00  0.0000E+000  
  425.50  6.0402E-004  
  426.00  1.8412E-003  
  426.50  3.7124E-003  
  427.00  6.0311E-003  
  427.50  7.1242E-003  
  428.00  7.5963E-003  
  428.50  7.9982E-003  
  429.00  7.3948E-003  
  429.50  9.1960E-003  
  430.00  1.1113E-002  
  430.50  1.1730E-002  
  431.00  1.4733E-002  
  431.50  1.8500E-002  
  432.00  1.8395E-002  
  432.50  1.6790E-002  
  433.00  1.1918E-002  
  433.50  7.4463E-003  
  434.00  6.9283E-003  
  434.50  5.6291E-003  
  435.00  9.0561E-003  
  435.50  9.8091E-003  
  436.00  9.4612E-003  
  436.50  8.7846E-003  
  437.00  1.8152E-003  
  437.50  1.3354E-003  
  438.00  4.4700E-003  
  438.50  1.1489E-002  
  439.00  1.9780E-002  
  439.50  2.2285E-002  
  440.00  2.0600E-002  
  440.50  2.0423E-002  
  441.00  2.3998E-002  
  441.50  2.7523E-002  
  442.00  3.1263E-002  
  442.50  2.5413E-002  
  443.00  2.0162E-002  
  443.50  1.6396E-002  
  444.00  1.2900E-002  
  444.50  1.5833E-002  
  445.00  1.8388E-002  
  445.50  2.0931E-002  
  446.00  2.8048E-002  
  446.50  2.8984E-002  
  447.00  2.6839E-002  
  447.50  2.5360E-002  
  448.00  1.8166E-002  
  448.50  1.9085E-002  
  449.00  1.7768E-002  
  449.50  1.9299E-002  
  450.00  1.9494E-002  
  450.50  2.0663E-002  
  451.00  2.1846E-002  
  451.50  2.0093E-002  
  452.00  1.6748E-002  
  452.50  1.6400E-002  
  453.00  2.1292E-002  
  453.50  2.5774E-002  
  454.00  2.2852E-002  
  454.50  1.3923E-002  
  455.00  1.9253E-003  
  455.50  0.0000E+000  
  456.00  6.4499E-004  
  456.50  7.7523E-003  
  457.00  1.3800E-002  
  457.50  1.7875E-002  
  458.00  2.2634E-002  
  458.50  3.1582E-002  
  459.00  3.3306E-002  
  459.50  2.9922E-002  
  460.00  3.1558E-002  
  460.50  3.4891E-002  
  461.00  4.3549E-002  
  461.50  3.7262E-002  
  462.00  2.3170E-002  
  462.50  1.7306E-002  
  463.00  1.9513E-002  
  463.50  3.5785E-002  
  464.00  4.5756E-002  
  464.50  4.4044E-002  
  465.00  3.9222E-002  
  465.50  3.4588E-002  
  466.00  3.9735E-002  
  466.50  5.1768E-002  
  467.00  5.5214E-002  
  467.50  5.1385E-002  
  468.00  5.1136E-002  
  468.50  5.1241E-002  
  469.00  5.5172E-002  
  469.50  5.8948E-002  
  470.00  5.0324E-002  
  470.50  4.4979E-002  
  471.00  3.5611E-002  
  471.50  3.0892E-002  
  472.00  4.0010E-002  
  472.50  4.9347E-002  
  473.00  5.6379E-002  
  473.50  5.8306E-002  
  474.00  5.8655E-002  
  474.50  5.0043E-002  
  475.00  3.2979E-002  
  475.50  2.1762E-002  
  476.00  3.2537E-002  
  476.50  4.6242E-002  
  477.00  6.3953E-002  
  477.50  5.6200E-002  
  478.00  5.4213E-002  
  478.50  6.1451E-002  
  479.00  5.8065E-002  
  479.50  5.4347E-002  
  480.00  3.3712E-002  
  480.50  2.2601E-002  
  481.00  1.6696E-002  
  481.50  2.5218E-002  
  482.00  4.5283E-002  
  482.50  5.6307E-002  
  483.00  4.9957E-002  
  483.50  3.2751E-002  
  484.00  3.2647E-002  
  484.50  4.2077E-002  
  485.00  6.1075E-002  
  485.50  6.5593E-002  
  486.00  5.6633E-002  
  486.50  5.0916E-002  
  487.00  3.9084E-002  
  487.50  3.6211E-002  
  488.00  3.7595E-002  
  488.50  4.1506E-002  
  489.00  4.3776E-002  
  489.50  5.6342E-002  
  490.00  7.0039E-002  
  490.50  8.5165E-002  
  491.00  8.7765E-002  
  491.50  7.8931E-002  
  492.00  5.7602E-002  
  492.50  5.2271E-002  
  493.00  5.4706E-002  
  493.50  6.8327E-002  
  494.00  6.7973E-002  
  494.50  4.0712E-002  
  495.00  4.1938E-002  
  495.50  4.6503E-002  
  496.00  1.1220E-001  
  496.50  1.8688E-001  
  497.00  2.8330E-001  
  497.50  3.6471E-001  
  498.00  3.7951E-001  
  498.50  3.3042E-001  
  499.00  2.1821E-001  
  499.50  1.3593E-001  
  500.00  7.1882E-002  
  500.50  5.1691E-002  
  501.00  5.4146E-002  
  501.50  6.9064E-002  
  502.00  1.0129E-001  
  502.50  1.1185E-001  
  503.00  1.1541E-001  
  503.50  1.0292E-001  
  504.00  1.0562E-001  
  504.50  1.0508E-001  
  505.00  1.1952E-001  
  505.50  1.0316E-001  
  506.00  1.1555E-001  
  506.50  1.1978E-001  
  507.00  1.4019E-001  
  507.50  1.3208E-001  
  508.00  1.2361E-001  
  508.50  9.5244E-002  
  509.00  8.5102E-002  
  509.50  7.5811E-002  
  510.00  6.9578E-002  
  510.50  9.0256E-002  
  511.00  7.0222E-002  
  511.50  4.7067E-002  
  512.00  5.6044E-002  
  512.50  8.1535E-002  
  513.00  1.4015E-001  
  513.50  1.9002E-001  
  514.00  2.3931E-001  
  514.50  2.8305E-001  
  515.00  2.9712E-001  
  515.50  2.6972E-001  
  516.00  2.1898E-001  
  516.50  1.7269E-001  
  517.00  1.5763E-001  
  517.50  1.6907E-001  
  518.00  1.9318E-001  
  518.50  1.8369E-001  
  519.00  1.2197E-001  
  519.50  8.5756E-002  
  520.00  7.5450E-002  
  520.50  1.0085E-001  
  521.00  1.1273E-001  
  521.50  8.5445E-002  
  522.00  6.3408E-002  
  522.50  9.9150E-002  
  523.00  1.3309E-001  
  523.50  1.9226E-001  
  524.00  2.4547E-001  
  524.50  2.7996E-001  
  525.00  3.1296E-001  
  525.50  2.7537E-001  
  526.00  1.8818E-001  
  526.50  1.3000E-001  
  527.00  1.4023E-001  
  527.50  2.0441E-001  
  528.00  2.5812E-001  
  528.50  2.9135E-001  
  529.00  2.8858E-001  
  529.50  3.2191E-001  
  530.00  3.3300E-001  
  530.50  2.8186E-001  
  531.00  1.9677E-001  
  531.50  1.3372E-001  
  532.00  1.0843E-001  
  532.50  1.8158E-001  
  533.00  1.6715E-001  
  533.50  1.2364E-001  
  534.00  1.0758E-001  
  534.50  1.1437E-001  
  535.00  1.5670E-001  
  535.50  1.6124E-001  
  536.00  1.8674E-001  
  536.50  2.4657E-001  
  537.00  2.2185E-001  
  537.50  1.6923E-001  
  538.00  1.9512E-001  
  538.50  2.5241E-001  
  539.00  3.0104E-001  
  539.50  2.7832E-001  
  540.00  2.5736E-001  
  540.50  2.5750E-001  
  541.00  2.6076E-001  
  541.50  2.8372E-001  
  542.00  2.9318E-001  
  542.50  2.8034E-001  
  543.00  2.4875E-001  
  543.50  2.5125E-001  
  544.00  2.6454E-001  
  544.50  2.5387E-001  
  545.00  2.5434E-001  
  545.50  2.2867E-001  
  546.00  2.2438E-001  
  546.50  2.3562E-001  
  547.00  2.4701E-001  
  547.50  2.8691E-001  
  548.00  2.3498E-001  
  548.50  1.8609E-001  
  549.00  2.6266E-001  
  549.50  3.4225E-001  
  550.00  3.9001E-001  
  550.50  3.1903E-001  
  551.00  2.1492E-001  
  551.50  1.9595E-001  
  552.00  2.3968E-001  
  552.50  2.6337E-001  
  553.00  2.9268E-001  
  553.50  3.8461E-001  
  554.00  4.8834E-001  
  554.50  5.7451E-001  
  555.00  5.9565E-001  
  555.50  5.8671E-001  
  556.00  5.1511E-001  
  556.50  4.7095E-001  
  557.00  4.3937E-001  
  557.50  4.7090E-001  
  558.00  4.5410E-001  
  558.50  3.9786E-001  
  559.00  3.7944E-001  
  559.50  4.5102E-001  
  560.00  5.1747E-001  
  560.50  6.0889E-001  
  561.00  5.6742E-001  
  561.50  5.7092E-001  
  562.00  5.9157E-001  
  562.50  6.6526E-001  
  563.00  7.1204E-001  
  563.50  6.7823E-001  
  564.00  6.5267E-001  
  564.50  7.1259E-001  
  565.00  7.2537E-001  
  565.50  8.6150E-001  
  566.00  1.0315E+000  
  566.50  1.6207E+000  
  567.00  2.7279E+000  
  567.50  4.0771E+000  
  568.00  5.1812E+000  
  568.50  5.1229E+000  
  569.00  4.0941E+000  
  569.50  2.6496E+000  
  570.00  1.5131E+000  
  570.50  9.6438E-001  
  571.00  7.0792E-001  
  571.50  6.3225E-001  
  572.00  5.6291E-001  
  572.50  6.4023E-001  
  573.00  7.0763E-001  
  573.50  7.4926E-001  
  574.00  7.4182E-001  
  574.50  7.5321E-001  
  575.00  7.8410E-001  
  575.50  8.7209E-001  
  576.00  9.4255E-001  
  576.50  1.0084E+000  
  577.00  1.0135E+000  
  577.50  9.2919E-001  
  578.00  8.1874E-001  
  578.50  7.7343E-001  
  579.00  8.3188E-001  
  579.50  1.0567E+000  
  580.00  1.2953E+000  
  580.50  1.4336E+000  
  581.00  1.5040E+000  
  581.50  1.5449E+000  
  582.00  1.6649E+000  
  582.50  1.8333E+000  
  583.00  2.1213E+000  
  583.50  2.5135E+000  
  584.00  2.9987E+000  
  584.50  3.4535E+000  
  585.00  4.0108E+000  
  585.50  4.6691E+000  
  586.00  5.3799E+000  
  586.50  5.7505E+000  
  587.00  5.5656E+000  
  587.50  4.6914E+000  
  588.00  3.4338E+000  
  588.50  2.2760E+000  
  589.00  1.9563E+000  
  589.50  2.5938E+000  
  590.00  3.8802E+000  
  590.50  5.0666E+000  
  591.00  5.7107E+000  
  591.50  5.8479E+000  
  592.00  5.6363E+000  
  592.50  5.1839E+000  
  593.00  4.5619E+000  
  593.50  3.9318E+000  
  594.00  3.4723E+000  
  594.50  3.2078E+000  
  595.00  3.0332E+000  
  595.50  2.8001E+000  
  596.00  2.5768E+000  
  596.50  2.3975E+000  
  597.00  2.2134E+000  
  597.50  2.0244E+000  
  598.00  1.7113E+000  
  598.50  1.5264E+000  
  599.00  1.4115E+000  
  599.50  1.4098E+000  
  600.00  1.4244E+000  
  600.50  1.3266E+000  
  601.00  1.2684E+000  
  601.50  1.1883E+000  
  602.00  1.1524E+000  
  602.50  1.1125E+000  
  603.00  1.0724E+000  
  603.50  9.6315E-001  
  604.00  8.9563E-001  
  604.50  8.3312E-001  
  605.00  8.7410E-001  
  605.50  8.6215E-001  
  606.00  8.3403E-001  
  606.50  7.1699E-001  
  607.00  6.4882E-001  
  607.50  6.3922E-001  
  608.00  7.0686E-001  
  608.50  7.7016E-001  
  609.00  7.3283E-001  
  609.50  5.6826E-001  
  610.00  4.4734E-001  
  610.50  3.7767E-001  
  611.00  4.3254E-001  
  611.50  4.9188E-001  
  612.00  4.9707E-001  
  612.50  4.2371E-001  
  613.00  3.6474E-001  
  613.50  3.9685E-001  
  614.00  5.1503E-001  
  614.50  7.7642E-001  
  615.00  9.6769E-001  
  615.50  1.0628E+000  
  616.00  9.5553E-001  
  616.50  7.3582E-001  
  617.00  4.9804E-001  
  617.50  3.3058E-001  
  618.00  2.8402E-001  
  618.50  3.1614E-001  
  619.00  3.2756E-001  
  619.50  2.8506E-001  
  620.00  2.6213E-001  
  620.50  2.6416E-001  
  621.00  2.7512E-001  
  621.50  2.8560E-001  
  622.00  2.6614E-001  
  622.50  2.3962E-001  
  623.00  2.2855E-001  
  623.50  2.3354E-001  
  624.00  2.5008E-001  
  624.50  2.4130E-001  
  625.00  2.3628E-001  
  625.50  2.4539E-001  
  626.00  2.6519E-001  
  626.50  2.6154E-001  
  627.00  2.6194E-001  
  627.50  2.7154E-001  
  628.00  2.6149E-001  
  628.50  2.2348E-001  
  629.00  1.7097E-001  
  629.50  1.6062E-001  
  630.00  2.1064E-001  
  630.50  2.2917E-001  
  631.00  2.2314E-001  
  631.50  1.8603E-001  
  632.00  1.4658E-001  
  632.50  1.4131E-001  
  633.00  1.5528E-001  
  633.50  1.8705E-001  
  634.00  1.8130E-001  
  634.50  1.6586E-001  
  635.00  1.7570E-001  
  635.50  1.8085E-001  
  636.00  1.7275E-001  
  636.50  1.2814E-001  
  637.00  9.1016E-002  
  637.50  7.6130E-002  
  638.00  6.2676E-002  
  638.50  5.9243E-002  
  639.00  4.2985E-002  
  639.50  5.4981E-002  
  640.00  8.7889E-002  
  640.50  1.1113E-001  
  641.00  1.0464E-001  
  641.50  8.1688E-002  
  642.00  6.6702E-002  
  642.50  6.9363E-002  
  643.00  6.3060E-002  
  643.50  7.6273E-002  
  644.00  5.8383E-002  
  644.50  5.6038E-002  
  645.00  3.8025E-002  
  645.50  4.4679E-002  
  646.00  5.3633E-002  
  646.50  5.6815E-002  
  647.00  6.3525E-002  
  647.50  4.9692E-002  
  648.00  3.5727E-002  
  648.50  2.3790E-002  
  649.00  4.0353E-002  
  649.50  5.5481E-002  
  650.00  6.2022E-002  
  650.50  5.6030E-002  
  651.00  4.4150E-002  
  651.50  4.5980E-002  
  652.00  4.2831E-002  
  652.50  5.4294E-002  
  653.00  5.8683E-002  
  653.50  5.6688E-002  
  654.00  3.7019E-002  
  654.50  3.3114E-002  
  655.00  4.3482E-002  
  655.50  5.9466E-002  
  656.00  5.3429E-002  
  656.50  3.9058E-002  
  657.00  2.7815E-002  
  657.50  2.8336E-002  
  658.00  2.8561E-002  
  658.50  3.9742E-002  
  659.00  4.9496E-002  
  659.50  5.3364E-002  
  660.00  4.3946E-002  
  660.50  3.0795E-002  
  661.00  3.5277E-002  
  661.50  3.9719E-002  
  662.00  4.1300E-002  
  662.50  3.5524E-002  
  663.00  2.9860E-002  
  663.50  2.6402E-002  
  664.00  1.6600E-002  
  664.50  1.5662E-002  
  665.00  1.0639E-002  
  665.50  1.5582E-002  
  666.00  1.1426E-002  
  666.50  1.3538E-002  
  667.00  1.0003E-002  
  667.50  1.1124E-002  
  668.00  1.5234E-002  
  668.50  1.8502E-002  
  669.00  1.6279E-002  
  669.50  1.0126E-002  
  670.00  7.7214E-003  
  670.50  8.2133E-003  
  671.00  7.4890E-003  
  671.50  6.5645E-003  
  672.00  4.8484E-003  
  672.50  5.3618E-003  
  673.00  5.0258E-003  
  673.50  8.6457E-003  
  674.00  1.1356E-002  
  674.50  1.1834E-002  
  675.00  9.6097E-003  
  675.50  9.1045E-003  
  676.00  1.1311E-002  
  676.50  1.2399E-002  
  677.00  7.0088E-003  
  677.50  1.7031E-003  
  678.00  2.0914E-004  
  678.50  4.0193E-003  
  679.00  6.5068E-003  
  679.50  7.6795E-003  
  680.00  8.6440E-003  
  680.50  8.5960E-003  
  681.00  9.2496E-003  
  681.50  9.0648E-003  
  682.00  1.0839E-002  
  682.50  8.9738E-003  
  683.00  6.1872E-003  
  683.50  4.8761E-003  
  684.00  4.7361E-003  
  684.50  5.6488E-003  
  685.00  4.4382E-003  
  685.50  5.4393E-003  
  686.00  4.9578E-003  
  686.50  4.8385E-003  
  687.00  4.3102E-003  
  687.50  4.3027E-003  
  688.00  3.6925E-003  
  688.50  3.1109E-003  
  689.00  2.4722E-003  
  689.50  4.2520E-003  
  690.00  5.7955E-003  
  690.50  5.3820E-003  
  691.00  3.8576E-003  
  691.50  2.6511E-003  
  692.00  4.1989E-003  
  692.50  5.0215E-003  
  693.00  5.0919E-003  
  693.50  2.7892E-003  
  694.00  1.3574E-003  
  694.50  7.3705E-004  
  695.00  2.4409E-003  
  695.50  3.6374E-003  
  696.00  3.8174E-003  
  696.50  1.8555E-003  
  697.00  3.3378E-004  
  697.50  4.5760E-004  
  698.00  8.8094E-005  
  698.50  0.0000E+000  
  699.00  5.5038E-005  
  699.50  1.2367E-003  
  700.00  1.6363E-003  
  700.50  2.0137E-003  
  701.00  2.1934E-003  
  701.50  1.5531E-003  
  702.00  1.0370E-003  
  702.50  9.3275E-004  
  703.00  1.4462E-003  
  703.50  1.2021E-003  
  704.00  1.4066E-003  
  704.50  1.8943E-003  
  705.00  2.4903E-003  
  705.50  2.7534E-003  
  706.00  2.5461E-003  
  706.50  2.1050E-003  
  707.00  1.3685E-003  
  707.50  5.3751E-004  
  708.00  2.7148E-004  
  708.50  6.0362E-004  
  709.00  9.8862E-004  
  709.50  8.9385E-004  
  710.00  5.2578E-004  
  710.50  3.9163E-004  
  711.00  1.0847E-003  
  711.50  1.7383E-003  
  712.00  2.2456E-003  
  712.50  1.7696E-003  
  713.00  1.4852E-003  
  713.50  8.4800E-004  
  714.00  5.9820E-004  
  714.50  5.2293E-004  
  715.00  3.9020E-004  
  715.50  2.8902E-004  
  716.00  3.2315E-004  
  716.50  6.7219E-004  
  717.00  7.8734E-004  
  717.50  6.5524E-004  
  718.00  9.2638E-004  
  718.50  9.2496E-004  
  719.00  8.5037E-004  
  719.50  7.1022E-004  
  720.00  6.6259E-004  
  720.50  4.8032E-004  
  721.00  2.5319E-004  
  721.50  2.5353E-004  
  722.00  3.8007E-004  
  722.50  3.7132E-004  
  723.00  4.0706E-004  
  723.50  4.2229E-004  
  724.00  4.0042E-004  
  724.50  5.9277E-004  
  725.00  6.3448E-004  
  725.50  6.9813E-004  
  726.00  4.1894E-004  
  726.50  4.7789E-004  
  727.00  6.1691E-004  
  727.50  7.3640E-004  
  728.00  7.3445E-004  
  728.50  3.8934E-004  
  729.00  8.3014E-005  
  729.50  2.4917E-005  
  730.00  2.2796E-004  
  730.50  3.0231E-004  
  731.00  2.4786E-004  
  731.50  2.7058E-004  
  732.00  3.3768E-004  
  732.50  3.7710E-004  
  733.00  3.5416E-004  
  733.50  1.8215E-004  
  734.00  1.0230E-004  
  734.50  9.3746E-005  
  735.00  1.5588E-004  
  735.50  1.4715E-004  
  736.00  7.9560E-005  
  736.50  6.8701E-005  
  737.00  3.2275E-006  
  737.50  1.3144E-005  
  738.00  0.0000E+000  
  738.50  6.2325E-005  
  739.00  2.1440E-004  
  739.50  2.8264E-004  
  740.00  2.2618E-004  
  740.50  1.2116E-004  
  741.00  6.7815E-005  
  741.50  4.2475E-005  
  742.00  7.7848E-005  
  742.50  1.3771E-004  
  743.00  1.0989E-004  
  743.50  4.7015E-005  
  744.00  7.1317E-005  
  744.50  1.2259E-004  
  745.00  1.7935E-004  
  745.50  1.7673E-004  
  746.00  1.9654E-004  
  746.50  2.2638E-004  
  747.00  2.0456E-004  
  747.50  1.3762E-004  
  748.00  6.2843E-005  
  748.50  6.6451E-005  
  749.00  1.0557E-004  
  749.50  1.2963E-004  
  750.00  1.1625E-004  
  750.50  1.2820E-004  
  751.00  1.5781E-004  
  751.50  1.7570E-004  
  752.00  1.2119E-004  
  752.50  5.3613E-005  
  753.00  3.7842E-006  
  753.50  7.2729E-006  
  754.00  4.9954E-005  
  754.50  7.8309E-005  
  755.00  5.8937E-005  
  755.50  5.4988E-005  
  756.00  7.0928E-005  
  756.50  6.4715E-005  
  757.00  4.9272E-005  
  757.50  5.0914E-005  
  758.00  6.3647E-005  
  758.50  6.2367E-005  
  759.00  6.5001E-005  
  759.50  6.2992E-005  
  760.00  6.4993E-005  
  760.50  7.8738E-005  
  761.00  7.8824E-005  
  761.50  6.5097E-005  
  762.00  4.9286E-005  
  762.50  2.5173E-005  
  763.00  1.6114E-005  
  763.50  1.2498E-005  
  764.00  3.1974E-005  
  764.50  2.2439E-005  
  765.00  1.8004E-005  
  765.50  3.6074E-005  
  766.00  5.0506E-005  
  766.50  5.6879E-005  
  767.00  5.4523E-005  
  767.50  5.1330E-005  
  768.00  3.9308E-005  
  768.50  2.3912E-005  
  769.00  3.7142E-005  
  769.50  6.4866E-005  
  770.00  6.8296E-005  
  770.50  5.6111E-005  
  771.00  3.4898E-005  
  771.50  2.3743E-005  
  772.00  1.1048E-005  
  772.50  2.1676E-005  
  773.00  2.6827E-005  
  773.50  2.2477E-005  
  774.00  9.9412E-006  
  774.50  3.4745E-006  
  775.00  9.0120E-006  
  775.50  1.0002E-005  
  776.00  7.8295E-006  
  776.50  2.7700E-007  
  777.00  2.6806E-006  
  777.50  1.6989E-005  
  778.00  2.7336E-005  
  778.50  2.5386E-005  
  779.00  1.7422E-005  
  779.50  7.8141E-006  
  780.00  4.7112E-006  
  780.50  0.0000E+000  
  781.00  0.0000E+000  
  781.50  0.0000E+000  
  782.00  0.0000E+000  
  782.50  0.0000E+000  
  783.00  0.0000E+000  
  783.50  0.0000E+000  
  784.00  0.0000E+000  
  784.50  0.0000E+000  
  785.00  0.0000E+000  
  785.50  0.0000E+000  
  786.00  0.0000E+000  
  786.50  0.0000E+000  
  787.00  0.0000E+000  
  787.50  0.0000E+000  
  788.00  0.0000E+000  
  788.50  0.0000E+000  
  789.00  0.0000E+000  
  789.50  0.0000E+000  
  790.00  0.0000E+000  
  790.50  0.0000E+000  
  791.00  0.0000E+000  
  791.50  0.0000E+000  
  792.00  0.0000E+000  
  792.50  0.0000E+000  
  793.00  0.0000E+000  
  793.50  0.0000E+000  
  794.00  0.0000E+000  
  794.50  0.0000E+000  
  795.00  0.0000E+000  
  795.50  0.0000E+000  
  796.00  0.0000E+000  
  796.50  0.0000E+000  
  797.00  0.0000E+000  
  797.50  0.0000E+000  
  798.00  0.0000E+000  
  798.50  0.0000E+000  
  799.00  0.0000E+000  
  799.50  0.0000E+000  
  800.00  0.0000E+000  
  800.50  0.0000E+000  
  801.00  0.0000E+000  
  801.50  0.0000E+000  
  802.00  0.0000E+000  
  802.50  0.0000E+000  
  803.00  0.0000E+000  
  803.50  0.0000E+000  
  804.00  0.0000E+000  
  804.50  0.0000E+000  
  805.00  0.0000E+000  
  805.50  0.0000E+000  
  806.00  0.0000E+000  
  806.50  0.0000E+000  
  807.00  0.0000E+000  
  807.50  0.0000E+000  
  808.00  0.0000E+000  
  808.50  0.0000E+000  
  809.00  0.0000E+000  
  809.50  0.0000E+000  
  810.00  0.0000E+000  
  810.50  0.0000E+000  
  811.00  0.0000E+000  
  811.50  0.0000E+000  
  812.00  0.0000E+000  
  812.50  0.0000E+000  
  813.00  0.0000E+000  
  813.50  0.0000E+000  
  814.00  0.0000E+000  
  814.50  0.0000E+000  
  815.00  0.0000E+000  
  815.50  0.0000E+000  
  816.00  0.0000E+000  
  816.50  0.0000E+000  
  817.00  0.0000E+000  
  817.50  0.0000E+000  
  818.00  0.0000E+000  
  818.50  0.0000E+000  
  819.00  0.0000E+000  
  819.50  0.0000E+000  
  820.00  0.0000E+000  
  820.50  0.0000E+000  
  821.00  0.0000E+000  
  821.50  0.0000E+000  
  822.00  0.0000E+000  
  822.50  0.0000E+000  
  823.00  0.0000E+000  
  823.50  0.0000E+000  
  824.00  0.0000E+000  
  824.50  0.0000E+000  
  825.00  0.0000E+000  
  825.50  0.0000E+000  
  826.00  0.0000E+000  
  826.50  0.0000E+000  
  827.00  0.0000E+000  
  827.50  0.0000E+000  
  828.00  0.0000E+000  
  828.50  0.0000E+000  
  829.00  0.0000E+000  
  829.50  0.0000E+000  
  830.00  0.0000E+000  
  830.50  0.0000E+000  
  831.00  0.0000E+000  
  831.50  0.0000E+000  
  832.00  0.0000E+000  
  832.50  0.0000E+000  
  833.00  0.0000E+000  
  833.50  0.0000E+000  
  834.00  0.0000E+000  
  834.50  0.0000E+000  
  835.00  0.0000E+000  
  835.50  0.0000E+000  
  836.00  0.0000E+000  
  836.50  0.0000E+000  
  837.00  0.0000E+000  
  837.50  0.0000E+000  
  838.00  0.0000E+000  
  838.50  0.0000E+000  
  839.00  0.0000E+000  
  839.50  0.0000E+000  
  840.00  0.0000E+000  
  840.50  0.0000E+000  
  841.00  0.0000E+000  
  841.50  0.0000E+000  
  842.00  0.0000E+000  
  842.50  0.0000E+000  
  843.00  0.0000E+000  
  843.50  0.0000E+000  
  844.00  0.0000E+000  
  844.50  0.0000E+000  
  845.00  0.0000E+000  
  845.50  0.0000E+000  
  846.00  0.0000E+000  
  846.50  0.0000E+000  
  847.00  0.0000E+000  
  847.50  0.0000E+000  
  848.00  0.0000E+000  
  848.50  0.0000E+000  
  849.00  0.0000E+000  
  849.50  0.0000E+000  
  850.00  0.0000E+000  
  850.50  0.0000E+000  
  851.00  0.0000E+000  
  851.50  0.0000E+000  
  852.00  0.0000E+000  
  852.50  0.0000E+000  
  853.00  0.0000E+000  
  853.50  0.0000E+000  
  854.00  0.0000E+000  
  854.50  0.0000E+000  
  855.00  0.0000E+000  
  855.50  0.0000E+000  
  856.00  0.0000E+000  
  856.50  0.0000E+000  
  857.00  0.0000E+000  
  857.50  0.0000E+000  
  858.00  0.0000E+000  
  858.50  0.0000E+000  
  859.00  0.0000E+000  
  859.50  0.0000E+000  
  860.00  0.0000E+000  
  860.50  0.0000E+000  
  861.00  0.0000E+000  
  861.50  0.0000E+000  
  862.00  0.0000E+000  
  862.50  0.0000E+000  
  863.00  0.0000E+000  
  863.50  0.0000E+000  
  864.00  0.0000E+000  
  864.50  0.0000E+000  
  865.00  0.0000E+000  
  865.50  0.0000E+000  
  866.00  0.0000E+000  
  866.50  0.0000E+000  
  867.00  0.0000E+000  
  867.50  0.0000E+000  
  868.00  0.0000E+000  
  868.50  0.0000E+000  
  869.00  0.0000E+000  
  869.50  0.0000E+000  
  870.00  0.0000E+000  
  870.50  0.0000E+000  
  871.00  0.0000E+000  
  871.50  0.0000E+000  
  872.00  0.0000E+000  
  872.50  0.0000E+000  
  873.00  0.0000E+000  
  873.50  0.0000E+000  
  874.00  0.0000E+000  
  874.50  0.0000E+000  
  875.00  0.0000E+000  
  875.50  0.0000E+000  
  876.00  0.0000E+000  
  876.50  0.0000E+000  
  877.00  0.0000E+000  
  877.50  0.0000E+000  
  878.00  0.0000E+000  
  878.50  0.0000E+000  
  879.00  0.0000E+000  
  879.50  0.0000E+000  
  880.00  0.0000E+000  
  880.50  0.0000E+000  
  881.00  0.0000E+000  
  881.50  0.0000E+000  
  882.00  0.0000E+000  
  882.50  0.0000E+000  
  883.00  0.0000E+000  
  883.50  0.0000E+000  
  884.00  0.0000E+000  
  884.50  0.0000E+000  
  885.00  0.0000E+000  
  885.50  0.0000E+000  
  886.00  0.0000E+000  
  886.50  0.0000E+000  
  887.00  0.0000E+000  
  887.50  0.0000E+000  
  888.00  0.0000E+000  
  888.50  0.0000E+000  
  889.00  0.0000E+000  
  889.50  0.0000E+000  
  890.00  0.0000E+000  
  890.50  0.0000E+000  
  891.00  0.0000E+000  
  891.50  0.0000E+000  
  892.00  0.0000E+000  
  892.50  0.0000E+000  
  893.00  0.0000E+000  
  893.50  0.0000E+000  
  894.00  0.0000E+000  
  894.50  0.0000E+000  
  895.00  0.0000E+000  
  895.50  0.0000E+000  
  896.00  0.0000E+000  
  896.50  0.0000E+000  
  897.00  0.0000E+000  
  897.50  0.0000E+000  
  898.00  0.0000E+000  
  898.50  0.0000E+000  
  899.00  0.0000E+000  
  899.50  0.0000E+000  
