
# From lspdd.org
# 
# Name: LFC Globe A15 -
# Indice spectral Valeur 
# MSI 0.88 
# SLI 0.79 
# IPI 1.01 
# Pourcentage de bleu 35.6 
# Caractéristique Valeur 
# CCT calculée (K) 4469 
# CCT du fabricant (K) 2870 
# Tension (V) 120 
# Puissance (W) 7.0 
# Efficacité lumineuse (Lum/W) ND 
#
# Image: '/app/system/img_1s/2772/medium_image1.jpg?1622001366'
# 

  273.00  0 
  273.50  0 
  274.00  0 
  274.50  0 
  275.00  0 
  275.50  0 
  276.00  0 
  276.50  0 
  277.00  0 
  277.50  0 
  278.00  0 
  278.50  0 
  279.00  0 
  279.50  0 
  280.00  0 
  280.50  0 
  281.00  0 
  281.50  0 
  282.00  0 
  282.50  0 
  283.00  0 
  283.50  0 
  284.00  0 
  284.50  0 
  285.00  0 
  285.50  0 
  286.00  0 
  286.50  0 
  287.00  0 
  287.50  0 
  288.00  0 
  288.50  0 
  289.00  0 
  289.50  0 
  290.00  0 
  290.50  0 
  291.00  0 
  291.50  0 
  292.00  0 
  292.50  0 
  293.00  0 
  293.50  0 
  294.00  0 
  294.50  0 
  295.00  0 
  295.50  0 
  296.00  0 
  296.50  0 
  297.00  0 
  297.50  0 
  298.00  0 
  298.50  0 
  299.00  0 
  299.50  0 
  300.00  2 
  300.50  1 
  301.00  1 
  301.50  7 
  302.00  0 
  302.50  0 
  303.00  0 
  303.50  0 
  304.00  2 
  304.50  1 
  305.00  4 
  305.50  5 
  306.00  4 
  306.50  3 
  307.00  3 
  307.50  5 
  308.00  6 
  308.50  7 
  309.00  6 
  309.50  3 
  310.00  9 
  310.50  6 
  311.00  8 
  311.50  2 
  312.00  3 
  312.50  3 
  313.00  3 
  313.50  1 
  314.00  5 
  314.50  0 
  315.00  0 
  315.50  2 
  316.00  5 
  316.50  7 
  317.00  8 
  317.50  7 
  318.00  4 
  318.50  2 
  319.00  1 
  319.50  8 
  320.00  0 
  320.50  0 
  321.00  0 
  321.50  7 
  322.00  2 
  322.50  3 
  323.00  3 
  323.50  3 
  324.00  3 
  324.50  3 
  325.00  4 
  325.50  4 
  326.00  2 
  326.50  4 
  327.00  0 
  327.50  0 
  328.00  0 
  328.50  2 
  329.00  1 
  329.50  1 
  330.00  1 
  330.50  5 
  331.00  1 
  331.50  6 
  332.00  1 
  332.50  4 
  333.00  9 
  333.50  1 
  334.00  1 
  334.50  1 
  335.00  8 
  335.50  6 
  336.00  5 
  336.50  8 
  337.00  1 
  337.50  1 
  338.00  1 
  338.50  8 
  339.00  7 
  339.50  7 
  340.00  8 
  340.50  9 
  341.00  1 
  341.50  9 
  342.00  9 
  342.50  1 
  343.00  1 
  343.50  1 
  344.00  1 
  344.50  1 
  345.00  1 
  345.50  1 
  346.00  1 
  346.50  1 
  347.00  1 
  347.50  1 
  348.00  1 
  348.50  1 
  349.00  1 
  349.50  1 
  350.00  1 
  350.50  1 
  351.00  1 
  351.50  1 
  352.00  1 
  352.50  1 
  353.00  1 
  353.50  1 
  354.00  1 
  354.50  1 
  355.00  1 
  355.50  1 
  356.00  1 
  356.50  1 
  357.00  2 
  357.50  1 
  358.00  1 
  358.50  1 
  359.00  1 
  359.50  1 
  360.00  2 
  360.50  2 
  361.00  2 
  361.50  2 
  362.00  2 
  362.50  2 
  363.00  6 
  363.50  1 
  364.00  2 
  364.50  3 
  365.00  3 
  365.50  3 
  366.00  2 
  366.50  1 
  367.00  9 
  367.50  5 
  368.00  3 
  368.50  2 
  369.00  2 
  369.50  2 
  370.00  2 
  370.50  2 
  371.00  1 
  371.50  1 
  372.00  1 
  372.50  1 
  373.00  1 
  373.50  2 
  374.00  1 
  374.50  1 
  375.00  1 
  375.50  1 
  376.00  1 
  376.50  1 
  377.00  1 
  377.50  1 
  378.00  1 
  378.50  1 
  379.00  1 
  379.50  2 
  380.00  2 
  380.50  2 
  381.00  2 
  381.50  2 
  382.00  2 
  382.50  2 
  383.00  2 
  383.50  1 
  384.00  1 
  384.50  2 
  385.00  2 
  385.50  2 
  386.00  1 
  386.50  1 
  387.00  1 
  387.50  1 
  388.00  1 
  388.50  1 
  389.00  1 
  389.50  1 
  390.00  1 
  390.50  1 
  391.00  1 
  391.50  1 
  392.00  1 
  392.50  2 
  393.00  2 
  393.50  2 
  394.00  2 
  394.50  2 
  395.00  2 
  395.50  2 
  396.00  2 
  396.50  2 
  397.00  2 
  397.50  2 
  398.00  2 
  398.50  2 
  399.00  2 
  399.50  3 
  400.00  3 
  400.50  3 
  401.00  3 
  401.50  3 
  402.00  5 
  402.50  1 
  403.00  3 
  403.50  6 
  404.00  9 
  404.50  1 
  405.00  8 
  405.50  5 
  406.00  2 
  406.50  1 
  407.00  1 
  407.50  1 
  408.00  1 
  408.50  9 
  409.00  6 
  409.50  5 
  410.00  4 
  410.50  4 
  411.00  4 
  411.50  3 
  412.00  3 
  412.50  3 
  413.00  3 
  413.50  4 
  414.00  4 
  414.50  4 
  415.00  4 
  415.50  4 
  416.00  4 
  416.50  4 
  417.00  4 
  417.50  4 
  418.00  4 
  418.50  4 
  419.00  4 
  419.50  4 
  420.00  4 
  420.50  4 
  421.00  4 
  421.50  3 
  422.00  3 
  422.50  4 
  423.00  4 
  423.50  4 
  424.00  4 
  424.50  4 
  425.00  4 
  425.50  5 
  426.00  5 
  426.50  5 
  427.00  5 
  427.50  5 
  428.00  5 
  428.50  5 
  429.00  5 
  429.50  6 
  430.00  6 
  430.50  6 
  431.00  7 
  431.50  7 
  432.00  8 
  432.50  9 
  433.00  1 
  433.50  2 
  434.00  6 
  434.50  1 
  435.00  2 
  435.50  3 
  436.00  3 
  436.50  2 
  437.00  1 
  437.50  4 
  438.00  1 
  438.50  1 
  439.00  9 
  439.50  7 
  440.00  7 
  440.50  6 
  441.00  6 
  441.50  5 
  442.00  5 
  442.50  5 
  443.00  5 
  443.50  5 
  444.00  4 
  444.50  4 
  445.00  4 
  445.50  4 
  446.00  4 
  446.50  4 
  447.00  4 
  447.50  4 
  448.00  4 
  448.50  4 
  449.00  4 
  449.50  4 
  450.00  4 
  450.50  4 
  451.00  4 
  451.50  4 
  452.00  3 
  452.50  3 
  453.00  3 
  453.50  3 
  454.00  3 
  454.50  3 
  455.00  4 
  455.50  4 
  456.00  3 
  456.50  3 
  457.00  3 
  457.50  4 
  458.00  4 
  458.50  4 
  459.00  3 
  459.50  3 
  460.00  3 
  460.50  3 
  461.00  3 
  461.50  3 
  462.00  3 
  462.50  3 
  463.00  3 
  463.50  4 
  464.00  4 
  464.50  4 
  465.00  4 
  465.50  4 
  466.00  4 
  466.50  4 
  467.00  4 
  467.50  4 
  468.00  4 
  468.50  4 
  469.00  3 
  469.50  3 
  470.00  3 
  470.50  3 
  471.00  3 
  471.50  3 
  472.00  3 
  472.50  3 
  473.00  3 
  473.50  3 
  474.00  3 
  474.50  3 
  475.00  3 
  475.50  4 
  476.00  4 
  476.50  4 
  477.00  4 
  477.50  4 
  478.00  4 
  478.50  5 
  479.00  5 
  479.50  6 
  480.00  7 
  480.50  8 
  481.00  1 
  481.50  1 
  482.00  1 
  482.50  1 
  483.00  2 
  483.50  2 
  484.00  3 
  484.50  4 
  485.00  4 
  485.50  5 
  486.00  5 
  486.50  6 
  487.00  6 
  487.50  5 
  488.00  5 
  488.50  5 
  489.00  4 
  489.50  4 
  490.00  4 
  490.50  4 
  491.00  3 
  491.50  3 
  492.00  3 
  492.50  3 
  493.00  3 
  493.50  2 
  494.00  2 
  494.50  2 
  495.00  2 
  495.50  2 
  496.00  2 
  496.50  1 
  497.00  1 
  497.50  1 
  498.00  1 
  498.50  1 
  499.00  1 
  499.50  1 
  500.00  1 
  500.50  9 
  501.00  9 
  501.50  8 
  502.00  7 
  502.50  6 
  503.00  6 
  503.50  5 
  504.00  5 
  504.50  4 
  505.00  4 
  505.50  4 
  506.00  4 
  506.50  3 
  507.00  3 
  507.50  3 
  508.00  3 
  508.50  3 
  509.00  3 
  509.50  3 
  510.00  3 
  510.50  2 
  511.00  2 
  511.50  2 
  512.00  2 
  512.50  2 
  513.00  2 
  513.50  2 
  514.00  2 
  514.50  2 
  515.00  2 
  515.50  2 
  516.00  2 
  516.50  2 
  517.00  2 
  517.50  2 
  518.00  2 
  518.50  2 
  519.00  2 
  519.50  2 
  520.00  2 
  520.50  2 
  521.00  2 
  521.50  2 
  522.00  2 
  522.50  2 
  523.00  2 
  523.50  2 
  524.00  2 
  524.50  2 
  525.00  2 
  525.50  3 
  526.00  3 
  526.50  3 
  527.00  3 
  527.50  3 
  528.00  3 
  528.50  4 
  529.00  4 
  529.50  4 
  530.00  4 
  530.50  4 
  531.00  5 
  531.50  6 
  532.00  8 
  532.50  1 
  533.00  1 
  533.50  1 
  534.00  1 
  534.50  1 
  535.00  1 
  535.50  1 
  536.00  1 
  536.50  2 
  537.00  3 
  537.50  4 
  538.00  4 
  538.50  5 
  539.00  7 
  539.50  1 
  540.00  1 
  540.50  2 
  541.00  2 
  541.50  2 
  542.00  2 
  542.50  2 
  543.00  2 
  543.50  2 
  544.00  2 
  544.50  2 
  545.00  3 
  545.50  4 
  546.00  4 
  546.50  3 
  547.00  2 
  547.50  2 
  548.00  1 
  548.50  1 
  549.00  1 
  549.50  1 
  550.00  1 
  550.50  8 
  551.00  7 
  551.50  6 
  552.00  5 
  552.50  4 
  553.00  4 
  553.50  3 
  554.00  3 
  554.50  2 
  555.00  2 
  555.50  2 
  556.00  1 
  556.50  1 
  557.00  1 
  557.50  1 
  558.00  1 
  558.50  1 
  559.00  1 
  559.50  1 
  560.00  9 
  560.50  9 
  561.00  9 
  561.50  9 
  562.00  8 
  562.50  8 
  563.00  8 
  563.50  8 
  564.00  7 
  564.50  7 
  565.00  7 
  565.50  6 
  566.00  6 
  566.50  6 
  567.00  6 
  567.50  6 
  568.00  6 
  568.50  6 
  569.00  6 
  569.50  6 
  570.00  5 
  570.50  5 
  571.00  5 
  571.50  5 
  572.00  5 
  572.50  5 
  573.00  5 
  573.50  5 
  574.00  6 
  574.50  7 
  575.00  1 
  575.50  2 
  576.00  4 
  576.50  6 
  577.00  6 
  577.50  6 
  578.00  6 
  578.50  7 
  579.00  7 
  579.50  7 
  580.00  6 
  580.50  5 
  581.00  5 
  581.50  5 
  582.00  5 
  582.50  6 
  583.00  6 
  583.50  6 
  584.00  6 
  584.50  6 
  585.00  6 
  585.50  6 
  586.00  7 
  586.50  9 
  587.00  1 
  587.50  9 
  588.00  8 
  588.50  6 
  589.00  5 
  589.50  4 
  590.00  4 
  590.50  4 
  591.00  5 
  591.50  6 
  592.00  7 
  592.50  9 
  593.00  9 
  593.50  8 
  594.00  6 
  594.50  5 
  595.00  4 
  595.50  3 
  596.00  3 
  596.50  3 
  597.00  3 
  597.50  4 
  598.00  4 
  598.50  5 
  599.00  6 
  599.50  6 
  600.00  5 
  600.50  5 
  601.00  4 
  601.50  3 
  602.00  2 
  602.50  2 
  603.00  2 
  603.50  2 
  604.00  2 
  604.50  2 
  605.00  3 
  605.50  3 
  606.00  3 
  606.50  4 
  607.00  5 
  607.50  6 
  608.00  8 
  608.50  1 
  609.00  1 
  609.50  2 
  610.00  4 
  610.50  5 
  611.00  6 
  611.50  6 
  612.00  6 
  612.50  5 
  613.00  4 
  613.50  3 
  614.00  2 
  614.50  2 
  615.00  2 
  615.50  1 
  616.00  1 
  616.50  1 
  617.00  8 
  617.50  7 
  618.00  6 
  618.50  5 
  619.00  5 
  619.50  5 
  620.00  5 
  620.50  5 
  621.00  5 
  621.50  5 
  622.00  6 
  622.50  6 
  623.00  6 
  623.50  7 
  624.00  7 
  624.50  7 
  625.00  7 
  625.50  7 
  626.00  7 
  626.50  7 
  627.00  7 
  627.50  7 
  628.00  7 
  628.50  7 
  629.00  7 
  629.50  8 
  630.00  1 
  630.50  1 
  631.00  1 
  631.50  9 
  632.00  7 
  632.50  4 
  633.00  3 
  633.50  2 
  634.00  2 
  634.50  1 
  635.00  1 
  635.50  1 
  636.00  1 
  636.50  1 
  637.00  1 
  637.50  1 
  638.00  1 
  638.50  1 
  639.00  1 
  639.50  1 
  640.00  1 
  640.50  1 
  641.00  1 
  641.50  1 
  642.00  1 
  642.50  1 
  643.00  1 
  643.50  1 
  644.00  1 
  644.50  1 
  645.00  1 
  645.50  1 
  646.00  1 
  646.50  1 
  647.00  1 
  647.50  1 
  648.00  1 
  648.50  1 
  649.00  1 
  649.50  2 
  650.00  3 
  650.50  3 
  651.00  3 
  651.50  2 
  652.00  2 
  652.50  2 
  653.00  1 
  653.50  1 
  654.00  1 
  654.50  1 
  655.00  1 
  655.50  1 
  656.00  1 
  656.50  1 
  657.00  1 
  657.50  1 
  658.00  1 
  658.50  1 
  659.00  9 
  659.50  9 
  660.00  8 
  660.50  9 
  661.00  1 
  661.50  1 
  662.00  1 
  662.50  2 
  663.00  1 
  663.50  1 
  664.00  1 
  664.50  9 
  665.00  8 
  665.50  7 
  666.00  7 
  666.50  7 
  667.00  8 
  667.50  8 
  668.00  7 
  668.50  7 
  669.00  6 
  669.50  6 
  670.00  6 
  670.50  6 
  671.00  6 
  671.50  6 
  672.00  6 
  672.50  6 
  673.00  5 
  673.50  5 
  674.00  4 
  674.50  4 
  675.00  5 
  675.50  5 
  676.00  5 
  676.50  4 
  677.00  4 
  677.50  4 
  678.00  5 
  678.50  5 
  679.00  5 
  679.50  6 
  680.00  6 
  680.50  6 
  681.00  6 
  681.50  6 
  682.00  6 
  682.50  6 
  683.00  6 
  683.50  5 
  684.00  5 
  684.50  6 
  685.00  7 
  685.50  8 
  686.00  1 
  686.50  1 
  687.00  1 
  687.50  2 
  688.00  1 
  688.50  1 
  689.00  1 
  689.50  8 
  690.00  6 
  690.50  5 
  691.00  5 
  691.50  5 
  692.00  6 
  692.50  8 
  693.00  1 
  693.50  1 
  694.00  1 
  694.50  1 
  695.00  7 
  695.50  5 
  696.00  4 
  696.50  4 
  697.00  3 
  697.50  3 
  698.00  2 
  698.50  2 
  699.00  2 
  699.50  2 
  700.00  2 
  700.50  2 
  701.00  3 
  701.50  3 
  702.00  4 
  702.50  5 
  703.00  6 
  703.50  7 
  704.00  9 
  704.50  1 
  705.00  1 
  705.50  2 
  706.00  3 
  706.50  4 
  707.00  4 
  707.50  4 
  708.00  4 
  708.50  5 
  709.00  5 
  709.50  4 
  710.00  3 
  710.50  2 
  711.00  2 
  711.50  3 
  712.00  4 
  712.50  4 
  713.00  3 
  713.50  2 
  714.00  1 
  714.50  6 
  715.00  4 
  715.50  3 
  716.00  2 
  716.50  1 
  717.00  1 
  717.50  1 
  718.00  1 
  718.50  1 
  719.00  1 
  719.50  1 
  720.00  1 
  720.50  1 
  721.00  1 
  721.50  1 
  722.00  1 
  722.50  1 
  723.00  1 
  723.50  1 
  724.00  1 
  724.50  1 
  725.00  1 
  725.50  1 
  726.00  1 
  726.50  1 
  727.00  1 
  727.50  1 
  728.00  1 
  728.50  1 
  729.00  1 
  729.50  1 
  730.00  1 
  730.50  1 
  731.00  1 
  731.50  1 
  732.00  1 
  732.50  1 
  733.00  8 
  733.50  2 
  734.00  0 
  734.50  0 
  735.00  3 
  735.50  5 
  736.00  8 
  736.50  1 
  737.00  1 
  737.50  1 
  738.00  2 
  738.50  2 
  739.00  2 
  739.50  1 
  740.00  1 
  740.50  1 
  741.00  1 
  741.50  1 
  742.00  1 
  742.50  1 
  743.00  1 
  743.50  1 
  744.00  1 
  744.50  1 
  745.00  1 
  745.50  1 
  746.00  1 
  746.50  8 
  747.00  5 
  747.50  6 
  748.00  1 
  748.50  1 
  749.00  1 
  749.50  1 
  750.00  3 
  750.50  3 
  751.00  4 
  751.50  3 
  752.00  2 
  752.50  1 
  753.00  6 
  753.50  4 
  754.00  1 
  754.50  9 
  755.00  8 
  755.50  6 
  756.00  6 
  756.50  2 
  757.00  0 
  757.50  0 
  758.00  1 
  758.50  6 
  759.00  3 
  759.50  5 
  760.00  1 
  760.50  8 
  761.00  5 
  761.50  1 
  762.00  2 
  762.50  4 
  763.00  6 
  763.50  6 
  764.00  5 
  764.50  3 
  765.00  2 
  765.50  1 
  766.00  1 
  766.50  8 
  767.00  5 
  767.50  8 
  768.00  1 
  768.50  8 
  769.00  5 
  769.50  6 
  770.00  9 
  770.50  9 
  771.00  1 
  771.50  2 
  772.00  3 
  772.50  3 
  773.00  2 
  773.50  1 
  774.00  4 
  774.50  1 
  775.00  0 
  775.50  4 
  776.00  5 
  776.50  0 
  777.00  0 
  777.50  0 
  778.00  0 
  778.50  2 
  779.00  4 
  779.50  2 
  780.00  1 
  780.50  3 
  781.00  5 
  781.50  3 
  782.00  2 
  782.50  2 
  783.00  1 
  783.50  0 
  784.00  0 
  784.50  0 
  785.00  2 
  785.50  7 
  786.00  6 
  786.50  3 
  787.00  3 
  787.50  3 
  788.00  2 
  788.50  4 
  789.00  1 
  789.50  1 
  790.00  9 
  790.50  7 
  791.00  5 
  791.50  3 
  792.00  3 
  792.50  7 
  793.00  1 
  793.50  1 
  794.00  1 
  794.50  2 
  795.00  2 
  795.50  1 
  796.00  6 
  796.50  3 
  797.00  1 
  797.50  9 
  798.00  1 
  798.50  1 
  799.00  1 
  799.50  2 
  800.00  2 
  800.50  3 
  801.00  4 
  801.50  4 
  802.00  3 
  802.50  2 
  803.00  1 
  803.50  1 
  804.00  2 
  804.50  3 
  805.00  2 
  805.50  1 
  806.00  3 
  806.50  6 
  807.00  6 
  807.50  1 
  808.00  3 
  808.50  4 
  809.00  6 
  809.50  6 
  810.00  7 
  810.50  1 
  811.00  1 
  811.50  1 
  812.00  7 
  812.50  3 
  813.00  7 
  813.50  0 
  814.00  0 
  814.50  0 
  815.00  0 
  815.50  0 
  816.00  0 
  816.50  0 
  817.00  1 
  817.50  7 
  818.00  1 
  818.50  7 
  819.00  6 
  819.50  0 
  820.00  0 
  820.50  0 
  821.00  1 
  821.50  1 
  822.00  1 
  822.50  1 
  823.00  1 
  823.50  3 
  824.00  0 
  824.50  0 
  825.00  6 
  825.50  2 
  826.00  2 
  826.50  2 
  827.00  2 
  827.50  1 
  828.00  1 
  828.50  5 
  829.00  5 
  829.50  0 
  830.00  0 
  830.50  0 
  831.00  0 
  831.50  0 
  832.00  0 
  832.50  2 
  833.00  3 
  833.50  8 
  834.00  1 
  834.50  2 
  835.00  0 
  835.50  0 
  836.00  0 
  836.50  0 
  837.00  1 
  837.50  1 
  838.00  1 
  838.50  1 
  839.00  1 
  839.50  2 
  840.00  2 
  840.50  4 
  841.00  4 
  841.50  4 
  842.00  4 
  842.50  4 
  843.00  3 
  843.50  2 
  844.00  1 
  844.50  9 
  845.00  1 
  845.50  5 
  846.00  1 
  846.50  0 
  847.00  8 
  847.50  9 
  848.00  1 
  848.50  1 
  849.00  1 
  849.50  1 
  850.00  3 
  850.50  3 
  851.00  2 
  851.50  1 
  852.00  1 
  852.50  8 
  853.00  5 
  853.50  4 
  854.00  0 
  854.50  0 
  855.00  4 
  855.50  1 
  856.00  1 
  856.50  9 
  857.00  0 
  857.50  0 
  858.00  3 
  858.50  0 
  859.00  0 
  859.50  0 
  860.00  3 
  860.50  1 
  861.00  2 
  861.50  7 
  862.00  0 
  862.50  0 
  863.00  0 
  863.50  7 
  864.00  1 
  864.50  2 
  865.00  1 
  865.50  1 
  866.00  0 
  866.50  0 
  867.00  0 
  867.50  2 
  868.00  0 
  868.50  5 
  869.00  1 
  869.50  3 
  870.00  6 
  870.50  9 
  871.00  9 
  871.50  9 
  872.00  4 
  872.50  5 
  873.00  2 
  873.50  4 
  874.00  0 
  874.50  0 
  875.00  0 
  875.50  0 
  876.00  0 
  876.50  0 
  877.00  0 
  877.50  4 
  878.00  0 
  878.50  0 
  879.00  7 
  879.50  1 
  880.00  1 
  880.50  2 
  881.00  1 
  881.50  1 
  882.00  1 
  882.50  1 
  883.00  2 
  883.50  6 
  884.00  3 
  884.50  2 
  885.00  4 
  885.50  6 
  886.00  4 
  886.50  2 
  887.00  1 
  887.50  8 
  888.00  1 
  888.50  1 
  889.00  0 
  889.50  4 
  890.00  1 
  890.50  9 
  891.00  0 
  891.50  0 
  892.00  4 
  892.50  1 
  893.00  3 
  893.50  9 
  894.00  7 
  894.50  2 
  895.00  0 
  895.50  0 
  896.00  0 
  896.50  0 
  897.00  0 
  897.50  0 
  898.00  0 
  898.50  0 
  899.00  0 
  899.50  0 
