# data from Query 1985 database
# ;  Optical constants for Fe
# ;
# ;    Lambda (A)            n            k
290.0	1.142
300.0	1.155
310.0	1.164
320.0	1.179
330.0	1.207
340.0	1.234
350.0	1.262
360.0	1.296
370.0	1.339
380.0	1.390
390.0	1.442
400.0	1.492
410.0	1.538
420.0	1.583
430.0	1.631
440.0	1.682
450.0	1.736
460.0	1.790
470.0	1.846
480.0	1.903
490.0	1.952
500.0	1.996
510.0	2.039
520.0	2.080
530.0	2.119
540.0	2.156
550.0	2.189
560.0	2.219
570.0	2.252
580.0	2.281
590.0	2.305
600.0	2.328
610.0	2.350
620.0	2.370
630.0	2.391
640.0	2.408
650.0	2.427
660.0	2.448
670.0	2.468
680.0	2.486
690.0	2.503
700.0	2.519
710.0	2.533
720.0	2.549
730.0	2.564
740.0	2.577
750.0	2.587
760.0	2.597
770.0	2.611
780.0	2.623
790.0	2.633
800.0	2.649
810.0	2.657
820.0	2.666
830.0	2.678
840.0	2.689
850.0	2.700
860.0	2.713
870.0	2.729
880.0	2.742
890.0	2.757
